Hydroquinone,,
Wavelength (nm),Intensity (a.u.),
290,3.720777035,
291.0700073,2.290428638,
292,1.581253171,
293.0700073,0.3823212385,
294,-0.01351934671,
295.0700073,-0.4129478335,
296,-0.4399155378,
297.0700073,-0.6525071859,
298,-0.7437612414,
299.0700073,-0.6707949638,
300,-0.7001452446,
301.0700073,-0.3840991855,
302,-0.5434523225,
303.0700073,-0.7260701656,
304,-0.6948150396,
305.0700073,-0.4301732183,
306,-0.3173466921,
307.0700073,-0.5247524977,
308,-0.2675017118,
309.0700073,-0.08011335135,
310,0.2157841921,
311.0700073,0.5891134739,
312,3.009255886,
313.0700073,5.869222164,
314,13.25391293,
315.0700073,24.14388084,
316,39.70138931,
317.0700073,62.20956421,
318,89.04216766,
319.0700073,117.3619614,
320,143.3503723,
321.0700073,173.8477783,
322,198.6113434,
323.0700073,216.7721405,
324,234.5426941,
325.0700073,246.9088135,
326,251.8604431,
327.0700073,264.8387451,
328,264.4615479,
329.0700073,269.4210205,
330,259.959198,
331.0700073,269.0329285,
332,259.7623901,
333.0700073,269.4842834,
334,257.2328491,
335.0700073,250.7886505,
336,246.6213379,
337.0700073,241.6231384,
338,234.0464172,
339.0700073,226.5796661,
340,219.2441559,
341.0700073,214.9297333,
342,206.9323883,
343.0700073,205.394928,
344,199.0748901,
345.0700073,185.9094849,
346,176.4590759,
347.0700073,171.9081573,
348,163.8157501,
349.0700073,163.1713409,
350,155.7260742,
351.0700073,150.5673218,
352,145.5551605,
353.0700073,135.2489014,
354,133.0428162,
355.0700073,121.6377792,
356,114.7317123,
357.0700073,114.3359985,
358,106.7004166,
359.0700073,102.0410233,
360,97.16705322,
361.0599976,90.73308563,
361.9599915,91.00917053,
363.0299988,81.39525604,
363.9299927,82.55321503,
365,76.81358337,
366.0599976,69.81912994,
366.9599915,66.17441559,
368.0299988,60.70577621,
368.9299927,60.05028534,
370,56.89369202,
371.0700073,51.02158356,
372,49.35074234,
373.0700073,47.68965149,
374,45.20209122,
375.0700073,44.66841507,
376,40.03223801,
377.0700073,39.63151169,
378,37.3249855,
379.0700073,32.33052444,
380,31.5151329,
381.0599976,29.89636993,
381.9599915,31.49443436,
383.0299988,26.80285072,
383.9299927,24.99812508,
385,26.13294601,
386.0599976,23.3665657,
386.9599915,19.71356773,
388.0299988,19.11918259,
388.9299927,20.70098495,
390,17.87647057,
391.0700073,16.97831726,
392,14.58845806,
393.0700073,17.38138008,
394,14.99758244,
395.0700073,14.31200981,
396,13.84022141,
397.0700073,12.89215183,
398,11.37743759,
399.0700073,11.52758503,
400,10.56984043,
401.0599976,9.576818466,
401.9599915,9.647517204,
403.0299988,7.284605026,
403.9299927,7.513318062,
405,6.892456055,
406.0599976,7.207877159,
406.9599915,6.527309895,
408.0299988,6.904154301,
408.9299927,5.912164688,
410,5.297482491,
411.0599976,5.802809238,
411.9599915,4.597110748,
413.0299988,4.19800806,
413.9299927,4.645746708,
415,4.229050636,
416.0599976,3.603296757,
416.9599915,3.331147194,
418.0299988,3.266526699,
418.9299927,3.846286297,
420,3.666422844,
421.0599976,2.847999096,
421.9599915,2.259970188,
423.0299988,1.879416347,
423.9299927,2.784740925,
425,2.55091238,
426.0599976,2.043780327,
426.9599915,1.875383258,
428.0299988,1.584792733,
428.9299927,1.916215062,
430,2.246080875,
431.0599976,1.242603421,
431.9599915,1.417375922,
433.0299988,0.4125573635,
433.9299927,1.537431359,
435,1.261792779,
436.0599976,0.7801343203,
436.9599915,0.9625422955,
438.0299988,0.6357649565,
438.9299927,0.7846843004,
440,0.6927623749,
441.0599976,0.3755280972,
441.9599915,0.4170014858,
443.0299988,0.8067486286,
443.9299927,0.7544436455,
445,0.2969628572,
446.0599976,0.4658085108,
446.9599915,0.1793539524,
448.0299988,0.0983941555,
448.9299927,0.1271750927,
450,0.4026063681,
451.0400085,-0.07952570915,
451.9400024,0.2065256834,
452.980011,0.108576417,
454.019989,-0.02950948477,
455.0700073,-0.2527412176,
455.9700012,0.1372432709,
457.0100098,0.008113503456,
458.0499878,0.008101701736,
458.9500122,-0.006791830063,
460,-0.2337325215,
461.0599976,0.2448126078,
461.9599915,-0.423496604,
463.0299988,-0.3695505261,
463.9299927,-0.2201625705,
465,-0.2377767563,
466.0599976,-0.4098182321,
466.9599915,-0.1112215519,
468.0299988,-0.07519257069,
468.9299927,-0.170078814,
470,-0.3518840075,
471.0400085,-0.2548103333,
471.9400024,-0.3783795834,
472.980011,-0.5387855768,
474.019989,-0.2468869686,
475.0700073,-0.2079977393,
475.9700012,-0.5624163151,
477.0100098,-0.4740197659,
478.0499878,-0.7282499075,
478.9500122,-0.5078623891,
480,-0.5722733736,
481.0599976,-0.4634349346,
481.9599915,-0.5030171275,
483.0299988,-0.6833536625,
483.9299927,-0.6083027124,
485,-0.7437413931,
486.0599976,-0.4656860828,
486.9599915,-0.5556110144,
488.0299988,-0.316251874,
488.9299927,-0.4911147356,
490,-0.535291791,
491.0400085,-0.8139593601,
491.9400024,-0.3119867444,
492.980011,-0.6349823475,
494.019989,-0.4307131767,
495.0700073,-0.6092786193,
495.9700012,-0.5823944807,
497.0100098,-0.5830527544,
498.0499878,-0.4693090916,
498.9500122,-0.6505035162,
500,-0.6731604338,
501.0400085,-0.5605889559,
501.9400024,-0.6735295057,
502.980011,-0.5739845634,
504.019989,-0.8146792054,
505.0700073,-0.7276828289,
505.9700012,-0.6017817259,
507.0100098,-0.5790098906,
508.0499878,-0.5424333811,
508.9500122,-0.6589878798,
510,-0.490934968,
511.019989,-0.6033761501,
512.0499878,-0.7367306352,
512.9400024,-0.4994405508,
513.9699707,-0.801550746,
515,-0.767880857,
516.0200195,-0.6958864927,
517.0499878,-0.6940267086,
517.9400024,-0.797344327,
518.9699707,-0.6801413894,
520,-0.711992979,
521.039978,-0.6576321125,
521.9400024,-0.7259713411,
522.9799805,-0.6336696148,
524.0200195,-0.6767877936,
525.0700073,-0.8280687928,
525.9699707,-0.7549276352,
527.0100098,-0.7850375175,
528.0499878,-0.7533332109,
528.9500122,-0.549579978,
530,-0.7572491169,
531.039978,-0.7994529605,
531.9400024,-0.7996506691,
532.9799805,-0.6198446155,
534.0200195,-0.8945007324,
535.0700073,-0.8697485328,
535.9699707,-0.7782286406,
537.0100098,-0.9041007757,
538.0499878,-0.6936244965,
538.9500122,-0.8801101446,
540,-0.4910860658,
541.0200195,-0.8217984438,
542.0499878,-0.8951724768,
542.9400024,-0.8485725522,
543.9699707,-0.555467546,
545,-0.8040862679,
546.0200195,-0.555419445,
547.0499878,-0.9780403972,
547.9400024,-0.7997238636,
548.9699707,-0.717854619,
550,-0.8934211731,
551.0200195,-0.8377592564,
552.0499878,-0.9046373963,
552.9400024,-0.6188243032,
553.9699707,-1.03137064,
555,-0.8293166161,
556.0200195,-0.8637348413,
557.0499878,-0.7957907915,
557.9400024,-0.4218615294,
558.9699707,-0.7242298126,
560,-0.7317590714,
561.0200195,-0.8337883949,
562.0499878,-0.5455286503,
562.9400024,-0.848089695,
563.9699707,-0.8128834963,
565,-0.5542663336,
566.0200195,-0.5359933972,
567.0499878,-0.3726335764,
567.9400024,-0.3154643774,
568.9699707,0.2188644409,
570,0.7187931538,
571.0200195,0.7517704964,
572.0499878,1.59921062,
572.9400024,1.915337443,
573.9699707,1.971654296,
575,2.234893322,
576.0200195,2.203217506,
577.0499878,1.951141715,
577.9400024,1.600313306,
578.9699707,1.249454618,
580,1.190613627,
581.0100098,0.8347322941,
582.0200195,0.8859612942,
583.039978,0.6036933661,
584.0499878,0.01670908928,
585.0700073,-0.5503242612,
585.9400024,-0.3041184545,
586.9500122,-0.6505270004,
587.9699707,-0.9041785598,
588.9799805,-0.7351670861,
590,-0.5701847076,
591.0200195,-0.8511135578,
592.0499878,-0.8519206047,
592.9400024,-0.9673333168,
593.9699707,-0.8292356133,
595,-0.8947125673,
596.0200195,-0.7214006186,
597.0499878,-1.020910263,
597.9400024,-0.7724642158,
598.9699707,-0.7790168524,
600,-0.6835384965,
601.0100098,-0.9563595653,
602.0200195,-0.9453974962,
603.039978,-0.9242716432,
604.0499878,-0.8833158612,
605.0700073,-1.010325551,
605.9400024,-0.7434368134,
606.9500122,-0.6395715475,
607.9699707,-0.8320930004,
608.9799805,-0.7912880778,
610,-0.8206202388,
611.0100098,-0.801191926,
612.0200195,-0.6745588183,
613.039978,-0.8085585237,
614.0499878,-0.8565402627,
615.0700073,-0.780896008,
615.9400024,-0.7753455639,
616.9500122,-0.7441840172,
617.9699707,-0.7217188478,
618.9799805,-0.7373908758,
620,-0.8586938977,
621.0100098,-0.580435276,
622.0200195,-0.6271544099,
623.039978,-0.3263968229,
624.0499878,-0.5334488153,
625.0700073,-0.5535008907,
625.9400024,-0.1492737532,
626.9500122,-0.03611534834,
627.9699707,0.06340384483,
628.9799805,0.2634097338,
630,0.9471380711,
631.0100098,2.316915035,
632.0200195,3.388831139,
633.039978,5.305072308,
634.0499878,6.706346989,
635.0700073,8.143718719,
635.9400024,11.50182724,
636.9500122,14.21951103,
637.9699707,18.37785912,
638.9799805,19.08016777,
640,21.3079586,
641,25.65891075,
642,26.50851822,
643,26.95227242,
644,29.3531723,
645,31.36775208,
646,34.62579346,
647,34.11432266,
648,36.73307037,
649,36.77235031,
650,37.53105545,
651.0100098,36.85393906,
652.0200195,34.54156113,
653.039978,33.73290634,
654.0499878,38.8233757,
655.0700073,37.21559906,
655.9400024,39.79592514,
656.9500122,37.78978348,
657.9699707,37.89696121,
658.9799805,35.64605331,
660,35.43508911,
661,37.11296463,
662,35.47667694,
663,37.36719131,
664,33.33000946,
665,34.30074692,
666,33.79901886,
667,31.0776329,
668,32.06403351,
669,31.83604431,
670,31.61080933,
671,31.41013718,
672,29.59316254,
673,27.34706116,
674,29.41175079,
675,28.87555695,
676,28.50855064,
677,28.7889576,
678,24.57920456,
679,24.07026291,
680,24.35508537,
680.9799805,24.21969414,
681.9699707,22.76437378,
682.9500122,22.03617287,
683.9400024,21.82124138,
685.0700073,19.63791847,
686.0499878,20.29592896,
687.039978,19.02231026,
688.0200195,18.40543938,
689.0100098,18.29561615,
690,17.98283386,
691,17.14945412,
692,15.90077496,
693,16.26468849,
694,16.68281746,
695,14.38802338,
696,14.61582756,
697,13.76261711,
698,13.72568035,
699,12.26045036,
700,12.12883472,

Hydroquinone,
Hydroquinone
Collection Time: 4/28/2025 1:15:41 PM
Operator Name  :
Scan Software Version: 1.2(147)
Parameter List :
Instrument                        Cary Eclipse
Instrument Serial Number          MY17430002
Data mode                         Fluorescence
Scan mode                         Emission
X Mode                            Wavelength (nm)
Start (nm)                        290.00
Stop (nm)                         700.00
Ex. Wavelength (nm)               288.00
Ex. Slit (nm)                     5
Em. Slit (nm)                     5
Scan rate (nm/min)                600.00
Data interval (nm)                1.0000
Averaging Time (s)                0.1000
Excitation filter                 Auto
Emission filter                   Open
PMT voltage (V)                   High
Corrected spectra                 OFF
Method Log     :
Method Name    : Default
Date/Time stamp: 4/28/2025 9:34:43 AM
Method Modifications:
Zero Mode Changed: 4/28/2025 9:36:12 AM, Old:OFF, New:Reading
Zero Mode Changed: 4/28/2025 9:36:12 AM, Old:Reading, New:ON
PMT Volts Changed: 4/28/2025 9:36:35 AM, Old:600, New:800
Ex. Slit Width (nm): Changed: 4/28/2025 9:36:35 AM, Old:5, New:10
Em. Slit Width (nm): Changed: 4/28/2025 9:36:35 AM, Old:5, New:10
Emission PMT (V): Changed: 4/28/2025 9:36:35 AM, Old: 600, New: 800
Excitation Wavelength Changed: 4/28/2025 9:36:35 AM, Old: 350.00, New: 288.00
Emission Wavelength Changed: 4/28/2025 9:36:35 AM, Old: 400.00, New: 300.00
Stop Wavelength Changed: 4/28/2025 9:36:35 AM, Old: 600.00, New: 700.00
Zero Mode Changed: 4/28/2025 9:36:36 AM, Old:ON, New:OFF
User Delta Increment Changed: 4/28/2025 9:40:22 AM, Old:  10.00, New:   0.15
Excitation Wavelength Changed: 4/28/2025 9:40:22 AM, Old: 288.00, New: 450.00
Emission Wavelength Changed: 4/28/2025 9:40:22 AM, Old: 300.00, New: 500.00
Stop Wavelength Changed: 4/28/2025 9:40:22 AM, Old: 700.00, New: 800.00
Ex. Slit Width (nm): Changed: 4/28/2025 9:40:50 AM, Old:10, New:5
Em. Slit Width (nm): Changed: 4/28/2025 9:40:50 AM, Old:10, New:5
Excitation Wavelength Changed: 4/28/2025 9:50:42 AM, Old: 450.00, New: 288.00
Emission Wavelength Changed: 4/28/2025 9:50:42 AM, Old: 500.00, New: 300.00
Stop Wavelength Changed: 4/28/2025 9:50:52 AM, Old: 800.00, New: 700.00
Ex. Slit Width (nm): Changed: 4/28/2025 10:00:54 AM, Old:5, New:2.5
Em. Slit Width (nm): Changed: 4/28/2025 10:00:54 AM, Old:5, New:2.5
PMT Volts Changed: 4/28/2025 10:01:27 AM, Old:800, New:600
Ex. Slit Width (nm): Changed: 4/28/2025 10:01:27 AM, Old:2.5, New:5
Em. Slit Width (nm): Changed: 4/28/2025 10:01:27 AM, Old:2.5, New:5
Emission PMT (V): Changed: 4/28/2025 10:01:27 AM, Old: 800, New: 600
PMT Volts Changed: 4/28/2025 10:29:17 AM, Old:600, New:800
Emission PMT (V): Changed: 4/28/2025 10:29:17 AM, Old: 600, New: 800
PMT Volts Changed: 4/28/2025 10:36:23 AM, Old:800, New:600
Emission PMT (V): Changed: 4/28/2025 10:36:23 AM, Old: 800, New: 600
Excitation Wavelength Changed: 4/28/2025 10:36:42 AM, Old: 288.00, New: 450.00
Emission Wavelength Changed: 4/28/2025 10:36:42 AM, Old: 300.00, New: 500.00
User Delta Stop Changed: 4/28/2025 10:37:33 AM, Old: 450.00, New: 532.00
Excitation Wavelength Changed: 4/28/2025 10:37:33 AM, Old: 450.00, New: 532.00
Emission Wavelength Changed: 4/28/2025 10:37:33 AM, Old: 500.00, New: 550.00
Zero Mode Changed: 4/28/2025 10:40:03 AM, Old:OFF, New:Reading
Zero Mode Changed: 4/28/2025 10:40:03 AM, Old:Reading, New:ON
PMT Volts Changed: 4/28/2025 10:40:13 AM, Old:600, New:800
Emission PMT (V): Changed: 4/28/2025 10:40:13 AM, Old: 600, New: 800
Excitation Wavelength Changed: 4/28/2025 10:40:13 AM, Old: 532.00, New: 288.00
Zero Mode Changed: 4/28/2025 10:40:13 AM, Old:ON, New:OFF
Excitation Wavelength Changed: 4/28/2025 10:42:47 AM, Old: 288.00, New: 450.00
Emission Wavelength Changed: 4/28/2025 10:42:47 AM, Old: 550.00, New: 500.00
Zero Mode Changed: 4/28/2025 10:48:18 AM, Old:OFF, New:Reading
Zero Mode Changed: 4/28/2025 10:48:19 AM, Old:Reading, New:ON
Excitation Wavelength Changed: 4/28/2025 10:50:10 AM, Old: 450.00, New: 288.00
Emission Wavelength Changed: 4/28/2025 10:50:21 AM, Old: 500.00, New: 300.00
Emission Wavelength Changed: 4/28/2025 10:50:47 AM, Old: 300.00, New: 290.00
Zero Mode Changed: 4/28/2025 12:12:01 PM, Old:ON, New:Reading
Zero Mode Changed: 4/28/2025 12:12:01 PM, Old:Reading, New:ON
Zero Mode Changed: 4/28/2025 12:15:16 PM, Old:ON, New:Reading
Zero Mode Changed: 4/28/2025 12:15:16 PM, Old:Reading, New:ON
Zero Mode Changed: 4/28/2025 12:16:01 PM, Old:ON, New:Reading
Zero Mode Changed: 4/28/2025 12:16:01 PM, Old:Reading, New:ON
Zero Mode Changed: 4/28/2025 12:33:43 PM, Old:ON, New:Reading
Zero Mode Changed: 4/28/2025 12:33:43 PM, Old:Reading, New:ON
Zero Mode Changed: 4/28/2025 12:37:23 PM, Old:ON, New:Reading
Zero Mode Changed: 4/28/2025 12:37:23 PM, Old:Reading, New:ON
PMT Volts Changed: 4/28/2025 12:45:50 PM, Old:800, New:600
Emission PMT (V): Changed: 4/28/2025 12:45:50 PM, Old: 800, New: 600
Zero Mode Changed: 4/28/2025 12:45:50 PM, Old:ON, New:OFF
Zero Mode Changed: 4/28/2025 12:55:31 PM, Old:OFF, New:Reading
Zero Mode Changed: 4/28/2025 12:55:31 PM, Old:Reading, New:ON
PMT Volts Changed: 4/28/2025 1:10:00 PM, Old:600, New:800
Emission PMT (V): Changed: 4/28/2025 1:10:00 PM, Old: 600, New: 800
Zero Mode Changed: 4/28/2025 1:10:00 PM, Old:ON, New:OFF
Zero Mode Changed: 4/28/2025 1:13:17 PM, Old:OFF, New:Reading
Zero Mode Changed: 4/28/2025 1:13:17 PM, Old:Reading, New:ON
End Method Modifications

